Kappa file for Run 0 on 20200814 on sample T20-5d, HT thermometer
T0 (K)    Power (W)    Rth (ohms)    dR (ohms)    Ith (A)
30    0   1278.56    0    2.6084e-09
30    4.53764e-07   1260.69    -17.8678    2.6063e-09
30    9.08718e-07   1255.13    -23.4351    2.6093e-09
30    1.36446e-06   1246.06    -32.4985    2.61604e-09
30    1.81915e-06   1247.47    -31.0964    2.61149e-09
30.614    0   1259.52    0    1.59311e-08
30.612    4.69121e-07   1253.16    -6.36036    1.5933e-08
30.6105    9.39596e-07   1248.93    -10.5838    1.59358e-08
30.61    1.40835e-06   1243.78    -15.7374    1.59355e-08
30.6095    1.87851e-06   1240.37    -19.1483    1.59352e-08
31.2335    0   1228.85    0    2.61261e-09
31.232    4.85081e-07   1219.19    -9.65693    2.61055e-09
31.2305    9.70074e-07   1224.24    -4.60525    2.611e-09
31.2295    1.45602e-06   1209.68    -19.1627    2.61494e-09
31.229    1.94241e-06   1208.99    -19.853    2.61044e-09
31.8675    0   1208.81    0    2.61e-09
31.8655    4.99514e-07   1191.33    -17.4835    2.60885e-09
31.8635    9.99822e-07   1208.3    -0.512333    2.60655e-09
31.8625    1.50069e-06   1195.72    -13.0911    2.607e-09
31.8615    2.00033e-06   1195    -13.818    2.60775e-09
32.514    0   1198.79    0    2.61179e-09
32.5115    5.17087e-07   1188.2    -10.5939    2.60815e-09
32.509    1.03509e-06   1184.94    -13.8523    2.61005e-09
32.5075    1.55517e-06   1176.21    -22.5801    2.60965e-09
32.5065    2.07294e-06   1175.55    -23.2457    2.609e-09
33.172    0   1184.66    0    1.59339e-08
33.1695    5.3391e-07   1182.33    -2.32489    1.59306e-08
33.167    1.06904e-06   1177.75    -6.90538    1.59327e-08
33.1655    1.60341e-06   1173.43    -11.2265    1.59306e-08
33.165    2.1405e-06   1170.51    -14.1418    1.59306e-08
33.844    0   1157.19    0    2.61065e-09
33.841    5.54101e-07   1156.03    -1.15576    2.6072e-09
33.8385    1.10878e-06   1147.49    -9.6979    2.61179e-09
33.837    1.66433e-06   1145.06    -12.1209    2.61164e-09
33.836    2.22127e-06   1143.77    -13.4125    2.60935e-09
34.529    0   1154.04    0    1.59386e-08
34.5265    5.69386e-07   1150.22    -3.82043    1.59298e-08
34.524    1.14033e-06   1146.6    -7.44367    1.59313e-08
34.522    1.71167e-06   1143.81    -10.2282    1.59349e-08
34.521    2.28257e-06   1139.76    -14.2789    1.59352e-08
35.2305    0   1121.58    0    2.6057e-09
35.2265    5.90338e-07   1132.25    10.6762    2.60785e-09
35.2225    1.18359e-06   1115.03    -6.54959    2.61025e-09
35.2205    1.77503e-06   1115.63    -5.94402    2.61488e-09
35.2195    2.36667e-06   1118.59    -2.99058    2.6082e-09
35.945    0   1111.04    0    2.61152e-09
35.94    6.13167e-07   1110.65    -0.390717    2.61244e-09
35.936    1.22598e-06   1103.01    -8.02863    2.61149e-09
35.934    1.83994e-06   1095.09    -15.9437    2.61256e-09
35.933    2.45554e-06   1097.99    -13.0427    2.61454e-09
36.6705    0   1108.24    0    1.59406e-08
36.667    6.34651e-07   1105.52    -2.71445    1.59386e-08
36.6635    1.27023e-06   1102.63    -5.60394    1.59409e-08
36.6615    1.90467e-06   1099.18    -9.05439    1.59361e-08
36.6605    2.54159e-06   1096.16    -12.0812    1.59386e-08
37.416    0   1081.14    0    2.6116e-09
37.411    6.5453e-07   1078.32    -2.81909    2.61124e-09
37.4065    1.31032e-06   1074.06    -7.07175    2.61227e-09
37.404    1.96656e-06   1074.87    -6.27139    2.61335e-09
37.4025    2.62394e-06   1072.63    -8.5045    2.61273e-09
38.1725    0   1082.34    0    1.5945e-08
38.168    6.7405e-07   1078.82    -3.52644    1.59427e-08
38.1635    1.34956e-06   1076.02    -6.32325    1.5939e-08
38.161    2.02501e-06   1072.97    -9.37238    1.59445e-08
38.1595    2.7023e-06   1070.79    -11.5566    1.5942e-08
38.9485    0   1055.5    0    2.61299e-09
38.9425    6.96272e-07   1055.02    -0.477619    2.6137e-09
38.9365    1.39342e-06   1053.37    -2.12029    2.61184e-09
38.9335    2.0896e-06   1047.16    -8.33728    2.61398e-09
38.9325    2.78853e-06   1047.83    -7.66521    2.61254e-09
39.7375    0   1041.23    0    2.61086e-09
39.731    7.16315e-07   1044.07    2.8483    2.61188e-09
39.725    1.43173e-06   1039.44    -1.78616    2.61174e-09
39.722    2.1496e-06   1032.69    -8.53811    2.61284e-09
39.7205    2.86896e-06   1037.5    -3.72801    2.61013e-09
40.5405    0   1030.24    0    2.61224e-09
40.534    7.40701e-07   1032.27    2.02854    2.61292e-09
40.5285    1.4839e-06   1033.46    3.2136    2.61428e-09
40.526    2.22551e-06   1024.37    -5.86999    2.6111e-09
40.5245    2.97022e-06   1020.71    -9.5362    2.61436e-09
41.364    0   1026.16    0    2.60485e-09
41.3565    7.64047e-07   1024.73    -1.42789    2.60312e-09
41.3495    1.52801e-06   1018.82    -7.33871    2.60521e-09
41.346    2.29349e-06   1022.47    -3.69384    2.60399e-09
41.3445    3.06108e-06   1016.99    -9.16854    2.60695e-09
42.201    0   1015.76    0    2.61013e-09
42.1935    7.88521e-07   1009.94    -5.81335    2.61055e-09
42.1865    1.57837e-06   1008.77    -6.98955    2.61062e-09
42.183    2.36726e-06   1006.44    -9.31337    2.61192e-09
42.1815    3.15904e-06   997.633    -18.123    2.61193e-09
43.0555    0   1006.54    0    2.60895e-09
43.0475    8.10135e-07   1004.1    -2.43765    2.61254e-09
43.0405    1.61969e-06   997.201    -9.33511    2.6078e-09
43.037    2.43193e-06   1003.28    -3.2582    2.6092e-09
43.0355    3.24581e-06   991.08    -15.4557    2.61154e-09
43.9325    0   990.971    0    2.60805e-09
43.923    8.36553e-07   994.265    3.29448    2.60695e-09
43.914    1.67622e-06   993.409    2.43829    2.6092e-09
43.9095    2.5143e-06   986.583    -4.3877    2.6085e-09
43.9075    3.35467e-06   991.105    0.133806    2.60795e-09
44.825    0   982.646    0    2.61539e-09
44.814    8.61274e-07   985.249    2.60308    2.61279e-09
44.8035    1.72291e-06   978.047    -4.59854    2.61209e-09
44.7985    2.58632e-06   981.8    -0.845256    2.61229e-09
44.7965    3.4508e-06   973.424    -9.22142    2.61833e-09
45.728    0   981.269    0    2.6104e-09
45.718    8.91435e-07   978.662    -2.60671    2.6102e-09
45.7095    1.78611e-06   975.907    -5.36157    2.6086e-09
45.7055    2.68084e-06   961.964    -19.3047    2.61184e-09
45.7035    3.57479e-06   969.925    -11.3441    2.61e-09
46.6465    0   971.241    0    2.61444e-09
46.6385    9.17429e-07   960.992    -10.249    2.61084e-09
46.632    1.83519e-06   966.959    -4.28178    2.61025e-09
46.629    2.7567e-06   959.818    -11.4222    2.61534e-09
46.628    3.67605e-06   955.936    -15.3049    2.61524e-09
47.5885    0   962.929    0    2.62013e-09
47.5815    9.38169e-07   959.787    -3.14179    2.60735e-09
47.575    1.87781e-06   955.004    -7.92416    2.61124e-09
47.5725    2.8177e-06   953.532    -9.3968    2.6103e-09
47.5715    3.75895e-06   953.642    -9.28711    2.61838e-09
48.551    0   947.904    0    2.62078e-09
48.544    9.75461e-07   947.705    -0.199788    2.61289e-09
48.538    1.95126e-06   944.99    -2.91465    2.61035e-09
48.5355    2.92974e-06   953.45    5.54588    2.61629e-09
48.5345    3.90861e-06   941.977    -5.92739    2.61684e-09
49.5325    0   958.197    0    1.59422e-08
49.5255    1.00459e-06   956.939    -1.25801    1.59409e-08
49.5205    2.0134e-06   955.252    -2.94506    1.59411e-08
49.5185    3.02135e-06   952.393    -5.80384    1.59406e-08
49.517    4.0286e-06   951.715    -6.48171    1.59425e-08
50.5345    0   947.694    0    2.61239e-09
50.528    1.03311e-06   933.914    -13.7809    2.61534e-09
50.5225    2.06992e-06   932.059    -15.6352    2.61679e-09
50.5205    3.10766e-06   936.167    -11.5274    2.61065e-09
50.5195    4.14319e-06   934.694    -13.0008    2.60995e-09
51.559    0   931.245    0    2.6078e-09
51.5515    1.06896e-06   933.413    2.16764    2.61005e-09
51.5455    2.14134e-06   931.776    0.530498    2.609e-09
51.543    3.21448e-06   933.012    1.76665    2.6101e-09
51.542    4.28708e-06   930.137    -1.10796    2.60795e-09
52.6    0   931.53    0    2.60485e-09
52.5935    1.08447e-06   932.458    0.927471    2.60146e-09
52.588    2.17075e-06   930.011    -1.51902    2.60266e-09
52.586    3.26144e-06   928.183    -3.34784    2.60321e-09
52.5855    4.34929e-06   922.259    -9.27168    2.6042e-09
53.6665    0   931.49    0    2.61194e-09
53.659    1.12764e-06   926.641    -4.84972    2.61104e-09
53.653    2.25466e-06   919.845    -11.6456    2.60805e-09
53.6505    3.38563e-06   920.286    -11.2048    2.61359e-09
53.65    4.51891e-06   916.519    -14.9716    2.61424e-09
54.749    0   922.836    0    2.61368e-09
54.7425    1.15486e-06   922.648    -0.188453    2.61085e-09
54.738    2.30945e-06   913.996    -8.84007    2.61133e-09
54.7365    3.46726e-06   913.405    -9.43116    2.6122e-09
54.736    4.62818e-06   910.786    -12.0502    2.6134e-09
